Date (YYYY-MM-DD):2024-01-11   Time:  10:37:16
Patient name:test_1
Patient gender:Female
Remarks:none
Patient age:30
   
Deformability curve


Channel depth (mm):0,191
ATM reference (V):2,6024
Time for 3Pa (s):17,50
Minimum stress (Pa):0,11
Maximum stress (Pa):15,76
Temperature (degree):36,900

EImax:0,587
SS1/2:2,002

Raw data:

Time (s)       stress (Pa)            A (Pixels)              B (Pixels)                    EI                       Delta 
0,00	      15,756227	     360,573120	     110,443298	       0,531043	       3,264781
0,50	      14,984418	     333,351593	     108,888878	       0,507558	       3,061393
1,00	      14,194529	     330,311493	     109,277428	       0,502820	       3,022687
1,50	      13,497300	     328,166748	     109,533516	       0,499504	       2,996040
2,00	      12,869005	     326,214691	     109,830208	       0,496244	       2,970173
2,50	      12,293821	     325,633026	     110,135742	       0,494522	       2,956652
3,00	      11,768358	     324,204224	     110,630928	       0,491159	       2,930503
3,50	      11,253065	     323,271942	     111,245789	       0,487957	       2,905925
4,00	      10,672232	     321,505524	     111,022636	       0,486634	       2,895856
4,50	      10,217960	     321,235291	     111,110870	       0,486010	       2,891124
5,00	       9,779510	     319,171722	     111,004478	       0,483912	       2,875305
5,50	       9,356878	     317,080444	     110,700829	       0,482442	       2,864300
6,00	       8,952329	     314,545776	     110,979240	       0,478389	       2,834276
6,50	       8,565860	     312,923523	     111,323776	       0,475194	       2,810932
7,00	       8,192950	     311,656647	     112,211044	       0,470537	       2,777415
7,50	       7,834732	     309,282471	     112,637810	       0,466071	       2,745814
8,00	       7,493464	     307,026886	     113,082634	       0,461652	       2,715067
8,50	       7,162365	     305,439789	     113,889359	       0,456802	       2,681899
9,00	       6,843697	     304,099121	     114,275444	       0,453717	       2,661106
9,50	       6,480958	     303,166779	     114,830833	       0,450567	       2,640116
10,00	       6,190541	     300,657043	     115,280746	       0,445683	       2,608042
10,50	       5,913684	     298,969055	     116,456871	       0,439337	       2,567208
11,00	       5,645868	     296,003387	     117,023117	       0,433338	       2,529444
11,50	       5,390481	     293,805359	     117,397346	       0,429005	       2,502658
12,00	       5,147526	     292,108307	     118,119812	       0,424126	       2,472983
12,50	       4,913610	     290,233643	     118,492508	       0,420186	       2,449384
13,00	       4,695515	     288,195435	     119,840683	       0,412598	       2,404821
13,50	       4,480809	     285,580292	     120,397377	       0,406877	       2,371981
14,00	       4,271754	     284,713745	     121,318016	       0,402421	       2,346838
14,50	       4,076259	     281,091278	     121,628151	       0,395966	       2,311071
15,00	       3,852513	     279,451019	     122,081306	       0,391923	       2,289057
15,50	       3,673969	     277,274902	     122,908722	       0,385738	       2,255942
16,00	       3,502205	     274,573730	     123,628014	       0,379068	       2,220967
16,50	       3,341741	     272,599243	     124,549591	       0,372781	       2,188680
17,00	       3,186927	     270,340240	     125,918205	       0,364464	       2,146951
17,50	       3,033243	     269,256104	     125,994820	       0,362457	       2,137041
18,00	       2,890860	     266,858276	     127,098167	       0,354760	       2,099623
18,50	       2,756387	     264,588196	     128,050598	       0,347744	       2,066278
19,00	       2,626433	     262,386261	     128,534592	       0,342401	       2,041367
19,50	       2,501000	     259,171021	     129,076141	       0,335083	       2,007893
20,00	       2,384607	     256,682281	     130,015961	       0,327559	       1,974237
20,50	       2,254654	     254,308960	     130,826004	       0,320623	       1,943872
21,00	       2,148432	     251,941025	     131,778793	       0,313151	       1,911848
21,50	       2,048989	     250,451721	     132,469681	       0,308110	       1,890634
22,00	       1,952937	     249,172287	     133,947037	       0,300756	       1,860230
22,50	       1,858014	     245,553635	     134,309464	       0,292853	       1,828268
23,00	       1,769872	     243,851639	     135,387726	       0,286004	       1,801136
23,50	       1,685120	     241,934692	     136,153488	       0,279779	       1,776926
24,00	       1,595848	     239,500732	     137,541534	       0,270418	       1,741297
24,50	       1,519006	     237,502670	     139,205994	       0,260936	       1,706124
25,00	       1,446684	     235,016602	     139,645493	       0,254552	       1,682952
25,50	       1,376623	     232,819443	     140,603989	       0,246946	       1,655852
26,00	       1,308821	     231,589920	     142,404846	       0,238466	       1,626278
26,50	       1,234239	     229,235703	     143,117310	       0,231282	       1,601733
27,00	       1,172088	     226,746597	     143,951035	       0,223351	       1,575165
27,50	       1,114456	     225,388428	     145,763031	       0,214536	       1,546266
28,00	       1,068125	     222,760529	     146,831039	       0,205442	       1,517122
28,50	       1,015014	     221,070923	     147,683517	       0,199014	       1,496923
29,00	       0,965292	     219,068558	     148,283157	       0,192691	       1,477366
29,50	       0,917831	     217,077469	     149,943253	       0,182917	       1,447731
30,00	       0,872630	     214,774261	     151,033447	       0,174247	       1,422031
30,50	       0,827429	     212,715439	     151,771423	       0,167205	       1,401551
31,00	       0,786748	     211,194107	     153,135147	       0,159358	       1,379135
31,50	       0,747197	     209,042679	     153,907364	       0,151909	       1,358237
32,00	       0,707646	     207,195068	     155,275284	       0,143239	       1,334373
32,50	       0,672615	     205,817474	     156,353577	       0,136576	       1,316359
33,00	       0,640974	     203,763870	     157,236435	       0,128885	       1,295907
33,50	       0,609334	     202,016190	     158,853989	       0,119606	       1,271710
34,00	       0,570913	     200,601639	     159,870071	       0,112995	       1,254779
34,50	       0,544922	     198,896225	     160,608459	       0,106501	       1,238392
35,00	       0,517801	     196,241348	     161,404633	       0,097406	       1,215835
35,50	       0,490681	     195,125549	     162,326553	       0,091758	       1,202056
36,00	       0,472600	     194,070450	     164,213776	       0,083332	       1,181816
36,50	       0,447740	     192,716461	     164,388336	       0,079327	       1,172324
37,00	       0,424009	     191,079056	     165,485123	       0,071779	       1,154660
37,50	       0,401408	     189,646744	     166,833054	       0,063997	       1,136746
38,00	       0,378808	     188,159897	     167,370834	       0,058473	       1,124210
38,50	       0,357337	     186,869766	     167,681168	       0,054121	       1,114435
39,00	       0,340387	     185,244720	     168,482437	       0,047388	       1,099490
39,50	       0,322307	     183,836182	     169,443207	       0,040741	       1,084943
40,00	       0,307616	     183,567429	     170,350693	       0,037344	       1,077585
40,50	       0,289536	     182,641907	     171,125381	       0,032554	       1,067299
41,00	       0,272585	     181,517181	     171,688324	       0,027828	       1,057248
41,50	       0,262415	     181,240677	     171,689606	       0,027062	       1,055630
42,00	       0,251115	     179,925568	     173,613693	       0,017853	       1,036356
42,50	       0,231904	     178,825363	     173,280914	       0,015747	       1,031997
43,00	       0,219474	     178,703384	     174,312744	       0,012438	       1,025188
43,50	       0,209304	     177,424164	     174,817474	       0,007400	       1,014911
44,00	       0,198003	     176,567123	     175,454376	       0,003161	       1,006342
44,50	       0,187833	     176,240585	     175,966614	       0,000778	       1,001557
45,00	       0,177663	     176,163986	     176,362946	      -0,000564	       0,998872
45,50	       0,168623	     174,547791	     177,517380	      -0,008435	       0,983272
46,00	       0,161843	     174,888840	     177,011017	      -0,006031	       0,988011
46,50	       0,153932	     174,445877	     177,735001	      -0,009339	       0,981494
47,00	       0,147152	     174,368439	     178,750854	      -0,012411	       0,975483
47,50	       0,144892	     173,839355	     179,243790	      -0,015306	       0,969849
48,00	       0,135852	     173,682205	     179,165329	      -0,015540	       0,969396
48,50	       0,120032	     173,583374	     179,292099	      -0,016178	       0,968160
49,00	       0,113251	     173,115753	     180,466171	      -0,020788	       0,959270
49,50	       0,108731	     172,267105	     180,713318	      -0,023928	       0,953262
Fitting data:
     stress (Pa)                   EI                       Delta
       0,000000	            NaN	            NaN
       1,000000	       0,197176	       1,491205
       1,000000	       0,197176	       1,491205
       2,000000	       0,303462	       1,871345
       2,000000	       0,303462	       1,871345
       3,000000	       0,359313	       2,121651
       4,000000	       0,395593	       2,309031
       5,000000	       0,421190	       2,455363
       6,000000	       0,440235	       2,572925
       7,000000	       0,454970	       2,669521
       8,000000	       0,466717	       2,750356
      10,000000	       0,484288	       2,878132
      12,000000	       0,496814	       2,974674
      15,000000	       0,510070	       3,082213
      17,000000	       0,516582	       3,137210
      20,000000	       0,524136	       3,202878
